{
   "identifier":{
      "value":"MSG00001"
   },
   "resourceType":"Bundle",
   "type":"transaction",
   "entry":[
      {
         "request":{
            "method":"PUT",
            "url":"Organization/01010101-0101-4101-8101-010101010101"
         },
         "resource":{
            "id":"01010101-0101-4101-8101-010101010101",
            "resourceType":"Organization",
            "identifier":[
               {
                  "value":"GOOD HEALTH HOSPITAL",
                  "type":{
                     "coding":[
                        {
                           "system":"http://terminology.hl7.org/CodeSystem/v2-0301"
                        }
                     ]
                  }
               },
               {
                  "type":{
                     "coding":[
                        {
                           "system":"http://terminology.hl7.org/CodeSystem/v2-0301"
                        }
                     ]
                  }
               }
            ]
         }
      },
      {
         "resource":{
            "identifier":[
               {
                  "type":{
                     "coding":[
                        {
                           "system":"http://terminology.hl7.org/CodeSystem/v2-0301"
                        }
                     ]
                  },
                  "value":"GOOD HEALTH HOSPITAL"
               },
               {
                  "type":{
                     "coding":[
                        {
                           "system":"http://terminology.hl7.org/CodeSystem/v2-0301"
                        }
                     ]
                  }
               }
            ],
            "id":"02020202-0202-4202-8202-020202020202",
            "resourceType":"Organization"
         },
         "request":{
            "method":"PUT",
            "url":"Organization/02020202-0202-4202-8202-020202020202"
         }
      },
      {
         "resource":{
            "id":"03030303-0303-4303-8303-030303030303",
            "resourceType":"Organization",
            "identifier":[
               {
                  "type":{
                     "coding":[
                        {
                           "system":"http://terminology.hl7.org/CodeSystem/v2-0203"
                        }
                     ]
                  }
               }
            ]
         },
         "request":{
            "method":"PUT",
            "url":"Organization/03030303-0303-4303-8303-030303030303"
         }
      },
      {
         "request":{
            "url":"MessageHeader/04040404-0404-4404-8404-040404040404",
            "method":"PUT"
         },
         "resource":{
            "source":{
               "endpoint":"unknown",
               "name":"ADT1"
            },
            "sender":{
               "reference":"Organization/01010101-0101-4101-8101-010101010101"
            },
            "destination":[
               {
                  "name":"GHH LAB, INC.",
                  "receiver":{
                     "reference":"Organization/02020202-0202-4202-8202-020202020202"
                  },
                  "endpoint":"GOOD HEALTH HOSPITAL"
               }
            ],
            "meta":{
               "security":[
                  {
                     "code":"SECURITY"
                  }
               ],
               "tag":[
                  {
                     "system":"http://terminology.hl7.org/CodeSystem/v2-0103",
                     "code":"P"
                  },
                  {
                     "system":"http://terminology.hl7.org/CodeSystem/v2-0207"
                  }
               ]
            },
            "eventCoding":{
               "system":"http://terminology.hl7.org/CodeSystem/v2-0003",
               "code":"A01"
            },
            "responsible":{
               "reference":"Organization/03030303-0303-4303-8303-030303030303"
            },
            "id":"04040404-0404-4404-8404-040404040404",
            "resourceType":"MessageHeader"
         }
      },
      {
         "resource":{
            "id":"05050505-0505-4505-8505-050505050505",
            "resourceType":"Device",
            "identifier":[
               {
                  "value":"ADT1",
                  "type":{
                     "coding":[
                        {
                           "system":"http://terminology.hl7.org/CodeSystem/v2-0301"
                        }
                     ]
                  }
               }
            ]
         },
         "request":{
            "method":"PUT",
            "url":"Device/05050505-0505-4505-8505-050505050505"
         }
      },
      {
         "request":{
            "url":"Provenance/06060606-0606-4606-8606-060606060606",
            "method":"PUT"
         },
         "resource":{
            "id":"06060606-0606-4606-8606-060606060606",
            "resourceType":"Provenance",
            "agent":[
               {
                  "who":{
                     "reference":"Device/05050505-0505-4505-8505-050505050505"
                  }
               }
            ],
            "recorded":"1988-08-18T11:26:00.188818Z",
            "target":[
               {
                  "reference":"MessageHeader/04040404-0404-4404-8404-040404040404"
               }
            ]
         }
      },
      {
         "resource":{
            "birthDate":"1961-06-15",
            "identifier":[
               {
                  "value":"PATID1234",
                  "type":{
                     "coding":[
                        {
                           "code":"MR"
                        }
                     ]
                  }
               },
               {
                  "value":"123456789",
                  "type":{
                     "coding":[
                        {
                           "code":"SS"
                        }
                     ]
                  }
               },
               {
                  "type":{
                     "coding":[
                        {
                           "code":"SB"
                        }
                     ]
                  },
                  "value":"444333333"
               },
               {
                  "type":{
                     "coding":[
                        {
                           "code":"DL"
                        }
                     ]
                  },
                  "system":"NC",
                  "value":"987654"
               }
            ],
            "name":[
               {
                  "given":[
                     "ADAM",
                     "A"
                  ],
                  "suffix":[
                     "III"
                  ],
                  "use":"anonymous",
                  "family":"EVERYMAN"
               }
            ],
            "address":[
               {
                  "line":[
                     "2222 HOME STREET"
                  ],
                  "city":"GREENSBORO",
                  "state":"NC",
                  "postalCode":"27401-1020"
               }
            ],
            "active":true,
            "gender":"male",
            "telecom":[
               {
                  "use":"home",
                  "value":"(555) 555-2004"
               },
               {
                  "value":"(555)555-2004",
                  "use":"work"
               }
            ],
            "id":"07070707-0707-4707-8707-070707070707",
            "maritalStatus":{
               "coding":[
                  {
                     "code":"S"
                  }
               ]
            },
            "resourceType":"Patient"
         },
         "request":{
            "url":"Patient/07070707-0707-4707-8707-070707070707",
            "method":"PUT"
         }
      },
      {
         "resource":{
            "id":"08080808-0808-4808-8808-080808080808",
            "resourceType":"Account",
            "identifier":[
               {
                  "value":"PATID12345001",
                  "type":{
                     "coding":[
                        {
                           "code":"AN"
                        }
                     ]
                  }
               }
            ],
            "subject":[
               {
                  "reference":"Patient/07070707-0707-4707-8707-070707070707"
               }
            ],
            "status":"active"
         },
         "request":{
            "method":"PUT",
            "url":"Account/08080808-0808-4808-8808-080808080808"
         }
      },
      {
         "resource":{
            "resourceType":"Location",
            "partOf":{
               "reference":"Location/0a0a0a0a-0a0a-4a0a-8a0a-0a0a0a0a0a0a"
            },
            "name":"2000",
            "mode":"instance",
            "physicalType":{
               "coding":[
                  {
                     "system":"http://terminology.hl7.org/CodeSystem/location-physical-type",
                     "code":"si"
                  }
               ]
            },
            "id":"0c0c0c0c-0c0c-4c0c-8c0c-0c0c0c0c0c0c"
         },
         "request":{
            "method":"PUT",
            "url":"Location/0c0c0c0c-0c0c-4c0c-8c0c-0c0c0c0c0c0c"
         }
      },
      {
         "resource":{
            "partOf":{
               "reference":"Location/0c0c0c0c-0c0c-4c0c-8c0c-0c0c0c0c0c0c"
            },
            "mode":"instance",
            "physicalType":{
               "coding":[
                  {
                     "code":"ro",
                     "system":"http://terminology.hl7.org/CodeSystem/location-physical-type"
                  }
               ]
            },
            "id":"0d0d0d0d-0d0d-4d0d-8d0d-0d0d0d0d0d0d",
            "resourceType":"Location",
            "name":"2012"
         },
         "request":{
            "method":"PUT",
            "url":"Location/0d0d0d0d-0d0d-4d0d-8d0d-0d0d0d0d0d0d"
         }
      },
      {
         "request":{
            "method":"PUT",
            "url":"Location/0e0e0e0e-0e0e-4e0e-8e0e-0e0e0e0e0e0e"
         },
         "resource":{
            "partOf":{
               "reference":"Location/0d0d0d0d-0d0d-4d0d-8d0d-0d0d0d0d0d0d"
            },
            "name":"01",
            "mode":"instance",
            "physicalType":{
               "coding":[
                  {
                     "code":"bd",
                     "system":"http://terminology.hl7.org/CodeSystem/location-physical-type"
                  }
               ]
            },
            "id":"0e0e0e0e-0e0e-4e0e-8e0e-0e0e0e0e0e0e",
            "resourceType":"Location"
         }
      },
      {
         "request":{
            "method":"PUT",
            "url":"Location/09090909-0909-4909-8909-090909090909"
         },
         "resource":{
            "resourceType":"Location",
            "mode":"instance",
            "physicalType":{
               "coding":[
                  {
                     "code":"si",
                     "system":"http://terminology.hl7.org/CodeSystem/location-physical-type"
                  }
               ]
            },
            "id":"09090909-0909-4909-8909-090909090909"
         }
      },
      {
         "resource":{
            "physicalType":{
               "coding":[
                  {
                     "code":"bu",
                     "system":"http://terminology.hl7.org/CodeSystem/location-physical-type"
                  }
               ]
            },
            "id":"0a0a0a0a-0a0a-4a0a-8a0a-0a0a0a0a0a0a",
            "resourceType":"Location",
            "mode":"instance",
            "partOf":{
               "reference":"Location/09090909-0909-4909-8909-090909090909"
            }
         },
         "request":{
            "method":"PUT",
            "url":"Location/0a0a0a0a-0a0a-4a0a-8a0a-0a0a0a0a0a0a"
         }
      },
      {
         "request":{
            "method":"PUT",
            "url":"Location/0b0b0b0b-0b0b-4b0b-8b0b-0b0b0b0b0b0b"
         },
         "resource":{
            "resourceType":"Location",
            "partOf":{
               "reference":"Location/0a0a0a0a-0a0a-4a0a-8a0a-0a0a0a0a0a0a"
            },
            "mode":"instance",
            "physicalType":{
               "coding":[
                  {
                     "system":"http://terminology.hl7.org/CodeSystem/location-physical-type",
                     "code":"lvl"
                  }
               ]
            },
            "id":"0b0b0b0b-0b0b-4b0b-8b0b-0b0b0b0b0b0b"
         }
      },
      {
         "request":{
            "method":"PUT",
            "url":"Location/12121212-1212-4212-9212-121212121212"
         },
         "resource":{
            "partOf":{
               "reference":"Location/10101010-1010-4010-9010-101010101010"
            },
            "id":"12121212-1212-4212-9212-121212121212",
            "resourceType":"Location",
            "mode":"instance",
            "physicalType":{
               "coding":[
                  {
                     "system":"http://terminology.hl7.org/CodeSystem/location-physical-type",
                     "code":"si"
                  }
               ]
            }
         }
      },
      {
         "request":{
            "method":"PUT",
            "url":"Location/13131313-1313-4313-9313-131313131313"
         },
         "resource":{
            "mode":"instance",
            "physicalType":{
               "coding":[
                  {
                     "code":"ro",
                     "system":"http://terminology.hl7.org/CodeSystem/location-physical-type"
                  }
               ]
            },
            "id":"13131313-1313-4313-9313-131313131313",
            "resourceType":"Location",
            "partOf":{
               "reference":"Location/12121212-1212-4212-9212-121212121212"
            }
         }
      },
      {
         "request":{
            "url":"Location/14141414-1414-4414-9414-141414141414",
            "method":"PUT"
         },
         "resource":{
            "resourceType":"Location",
            "mode":"instance",
            "partOf":{
               "reference":"Location/13131313-1313-4313-9313-131313131313"
            },
            "physicalType":{
               "coding":[
                  {
                     "system":"http://terminology.hl7.org/CodeSystem/location-physical-type",
                     "code":"bd"
                  }
               ]
            },
            "id":"14141414-1414-4414-9414-141414141414"
         }
      },
      {
         "request":{
            "method":"PUT",
            "url":"Location/0f0f0f0f-0f0f-4f0f-8f0f-0f0f0f0f0f0f"
         },
         "resource":{
            "resourceType":"Location",
            "mode":"instance",
            "physicalType":{
               "coding":[
                  {
                     "code":"si",
                     "system":"http://terminology.hl7.org/CodeSystem/location-physical-type"
                  }
               ]
            },
            "id":"0f0f0f0f-0f0f-4f0f-8f0f-0f0f0f0f0f0f"
         }
      },
      {
         "resource":{
            "id":"10101010-1010-4010-9010-101010101010",
            "resourceType":"Location",
            "mode":"instance",
            "partOf":{
               "reference":"Location/0f0f0f0f-0f0f-4f0f-8f0f-0f0f0f0f0f0f"
            },
            "physicalType":{
               "coding":[
                  {
                     "system":"http://terminology.hl7.org/CodeSystem/location-physical-type",
                     "code":"bu"
                  }
               ]
            }
         },
         "request":{
            "method":"PUT",
            "url":"Location/10101010-1010-4010-9010-101010101010"
         }
      },
      {
         "resource":{
            "partOf":{
               "reference":"Location/10101010-1010-4010-9010-101010101010"
            },
            "id":"11111111-1111-4111-9111-111111111111",
            "resourceType":"Location",
            "mode":"instance",
            "physicalType":{
               "coding":[
                  {
                     "code":"lvl",
                     "system":"http://terminology.hl7.org/CodeSystem/location-physical-type"
                  }
               ]
            }
         },
         "request":{
            "method":"PUT",
            "url":"Location/11111111-1111-4111-9111-111111111111"
         }
      },
      {
         "request":{
            "method":"PUT",
            "url":"Practitioner/15151515-1515-4515-9515-151515151515"
         },
         "resource":{
            "id":"15151515-1515-4515-9515-151515151515",
            "resourceType":"Practitioner",
            "identifier":[
               {
                  "value":"004777"
               }
            ],
            "name":[
               {
                  "given":[
                     "AARON",
                     "A"
                  ],
                  "use":"anonymous",
                  "family":"ATTEND"
               }
            ]
         }
      },
      {
         "resource":{
            "id":"16161616-1616-4616-9616-161616161616",
            "resourceType":"Location"
         },
         "request":{
            "method":"PUT",
            "url":"Location/16161616-1616-4616-9616-161616161616"
         }
      },
      {
         "request":{
            "url":"EpisodeOfCare/17171717-1717-4717-9717-171717171717",
            "method":"PUT"
         },
         "resource":{
            "status":"finished",
            "patient":{
               "reference":"Patient/07070707-0707-4707-8707-070707070707"
            },
            "id":"17171717-1717-4717-9717-171717171717",
            "resourceType":"EpisodeOfCare"
         }
      },
      {
         "resource":{
            "resourceType":"Encounter",
            "identifier":[
               {
                  "type":{
                     "text":"visit number",
                     "coding":[
                        {
                           "code":"VN",
                           "system":"http://terminology.hl7.org/CodeSystem/v2-0203"
                        }
                     ]
                  }
               }
            ],
            "hospitalization":{
               "destination":{
                  "reference":"Location/16161616-1616-4616-9616-161616161616"
               },
               "admitSource":{
                  "coding":[
                     {
                        "code":"ADM"
                     }
                  ]
               }
            },
            "status":"unknown",
            "class":{
               "display":"inpatient encounter",
               "system":"http://terminology.hl7.org/CodeSystem/v3-ActCode",
               "code":"IMP",
               "version":"v1"
            },
            "participant":[
               {
                  "individual":{
                     "reference":"Practitioner/15151515-1515-4515-9515-151515151515"
                  },
                  "type":[
                     {
                        "coding":[
                           {
                              "system":"http://terminology.hl7.org/CodeSystem/v3-ParticipationType",
                              "display":"attender",
                              "code":"ATND"
                           }
                        ]
                     }
                  ]
               }
            ],
            "subject":{
               "reference":"Patient/07070707-0707-4707-8707-070707070707"
            },
            "episodeOfCare":[
               {
                  "reference":"EpisodeOfCare/17171717-1717-4717-9717-171717171717"
               }
            ],
            "location":[
               {
                  "status":"active",
                  "location":{
                     "reference":"Location/0c0c0c0c-0c0c-4c0c-8c0c-0c0c0c0c0c0c"
                  }
               },
               {
                  "location":{
                     "reference":"Location/0d0d0d0d-0d0d-4d0d-8d0d-0d0d0d0d0d0d"
                  },
                  "status":"active"
               },
               {
                  "status":"active",
                  "location":{
                     "reference":"Location/0e0e0e0e-0e0e-4e0e-8e0e-0e0e0e0e0e0e"
                  }
               },
               {
                  "location":{
                     "reference":"Location/09090909-0909-4909-8909-090909090909"
                  },
                  "status":"active"
               },
               {
                  "status":"active",
                  "location":{
                     "reference":"Location/0a0a0a0a-0a0a-4a0a-8a0a-0a0a0a0a0a0a"
                  }
               },
               {
                  "location":{
                     "reference":"Location/0b0b0b0b-0b0b-4b0b-8b0b-0b0b0b0b0b0b"
                  },
                  "status":"active"
               },
               {
                  "status":"completed",
                  "location":{
                     "reference":"Location/12121212-1212-4212-9212-121212121212"
                  }
               },
               {
                  "location":{
                     "reference":"Location/13131313-1313-4313-9313-131313131313"
                  },
                  "status":"completed"
               },
               {
                  "location":{
                     "reference":"Location/14141414-1414-4414-9414-141414141414"
                  },
                  "status":"completed"
               },
               {
                  "status":"completed",
                  "location":{
                     "reference":"Location/0f0f0f0f-0f0f-4f0f-8f0f-0f0f0f0f0f0f"
                  }
               },
               {
                  "location":{
                     "reference":"Location/10101010-1010-4010-9010-101010101010"
                  },
                  "status":"completed"
               },
               {
                  "status":"completed",
                  "location":{
                     "reference":"Location/11111111-1111-4111-9111-111111111111"
                  }
               }
            ],
            "id":"18181818-1818-4818-9818-181818181818"
         },
         "request":{
            "method":"PUT",
            "url":"Encounter/18181818-1818-4818-9818-181818181818"
         }
      }
   ],
   "timestamp":"1988-08-18T11:26:00.188818Z"
}

