{
   "timestamp":"2020-05-08T13:06:43.8558Z",
   "identifier":{
      "value":"5"
   },
   "resourceType":"Bundle",
   "type":"transaction",
   "entry":[
      {
         "resource":{
            "address":[
               {
                  "country":"44"
               }
            ],
            "identifier":[
               {
                  "value":"SFAC",
                  "type":{
                     "coding":[
                        {
                           "system":"http://terminology.hl7.org/CodeSystem/v2-0301"
                        }
                     ]
                  }
               },
               {
                  "type":{
                     "coding":[
                        {
                           "system":"http://terminology.hl7.org/CodeSystem/v2-0301"
                        }
                     ]
                  }
               }
            ],
            "id":"01010101-0101-4101-8101-010101010101",
            "resourceType":"Organization"
         },
         "request":{
            "method":"PUT",
            "url":"Organization/01010101-0101-4101-8101-010101010101"
         }
      },
      {
         "resource":{
            "identifier":[
               {
                  "value":"RFAC",
                  "type":{
                     "coding":[
                        {
                           "system":"http://terminology.hl7.org/CodeSystem/v2-0301"
                        }
                     ]
                  }
               },
               {
                  "type":{
                     "coding":[
                        {
                           "system":"http://terminology.hl7.org/CodeSystem/v2-0301"
                        }
                     ]
                  }
               }
            ],
            "id":"02020202-0202-4202-8202-020202020202",
            "resourceType":"Organization"
         },
         "request":{
            "url":"Organization/02020202-0202-4202-8202-020202020202",
            "method":"PUT"
         }
      },
      {
         "resource":{
            "identifier":[
               {
                  "type":{
                     "coding":[
                        {
                           "system":"http://terminology.hl7.org/CodeSystem/v2-0203"
                        }
                     ]
                  }
               }
            ],
            "id":"03030303-0303-4303-8303-030303030303",
            "resourceType":"Organization"
         },
         "request":{
            "method":"PUT",
            "url":"Organization/03030303-0303-4303-8303-030303030303"
         }
      },
      {
         "resource":{
            "responsible":{
               "reference":"Organization/03030303-0303-4303-8303-030303030303"
            },
            "id":"04040404-0404-4404-8404-040404040404",
            "resourceType":"MessageHeader",
            "source":{
               "name":"SIMHOSP",
               "endpoint":"unknown"
            },
            "sender":{
               "reference":"Organization/01010101-0101-4101-8101-010101010101"
            },
            "destination":[
               {
                  "receiver":{
                     "reference":"Organization/02020202-0202-4202-8202-020202020202"
                  },
                  "endpoint":"RFAC",
                  "name":"RAPP"
               }
            ],
            "eventCoding":{
               "code":"A01",
               "system":"http://terminology.hl7.org/CodeSystem/v2-0003"
            },
            "meta":{
               "tag":[
                  {
                     "code":"T",
                     "system":"http://terminology.hl7.org/CodeSystem/v2-0103"
                  },
                  {
                     "system":"http://terminology.hl7.org/CodeSystem/v2-0207"
                  }
               ]
            }
         },
         "request":{
            "url":"MessageHeader/04040404-0404-4404-8404-040404040404",
            "method":"PUT"
         }
      },
      {
         "resource":{
            "id":"05050505-0505-4505-8505-050505050505",
            "resourceType":"Device",
            "identifier":[
               {
                  "type":{
                     "coding":[
                        {
                           "system":"http://terminology.hl7.org/CodeSystem/v2-0301"
                        }
                     ]
                  },
                  "value":"SIMHOSP"
               }
            ]
         },
         "request":{
            "method":"PUT",
            "url":"Device/05050505-0505-4505-8505-050505050505"
         }
      },
      {
         "resource":{
            "id":"06060606-0606-4606-8606-060606060606",
            "resourceType":"Provenance",
            "agent":[
               {
                  "who":{
                     "reference":"Device/05050505-0505-4505-8505-050505050505"
                  }
               }
            ],
            "recorded":"2020-05-08T13:06:43.8558Z",
            "target":[
               {
                  "reference":"MessageHeader/04040404-0404-4404-8404-040404040404"
               }
            ]
         },
         "request":{
            "method":"PUT",
            "url":"Provenance/06060606-0606-4606-8606-060606060606"
         }
      },
      {
         "request":{
            "method":"PUT",
            "url":"Organization/07070707-0707-4707-8707-070707070707"
         },
         "resource":{
            "id":"07070707-0707-4707-8707-070707070707",
            "resourceType":"Organization",
            "name":"FAMILY PRACTICE",
            "identifier":[
               {
                  "value":"12345",
                  "type":{
                     "coding":[
                        {
                           "system":"http://terminology.hl7.org/CodeSystem/v2-0203"
                        }
                     ]
                  }
               }
            ]
         }
      },
      {
         "resource":{
            "id":"08080808-0808-4808-8808-080808080808",
            "birthDate":"1989-01-18",
            "active":true,
            "name":[
               {
                  "use":"anonymous",
                  "family":"Esterkin",
                  "given":[
                     "AKI Scenario 6"
                  ],
                  "prefix":[
                     "Miss"
                  ]
               }
            ],
            "address":[
               {
                  "city":"London",
                  "postalCode":"RW21 6KC",
                  "country":"GBR",
                  "line":[
                     "170 Juice Place"
                  ]
               }
            ],
            "resourceType":"Patient",
            "identifier":[
               {
                  "type":{
                     "coding":[
                        {
                           "code":"MRN"
                        }
                     ]
                  },
                  "value":"2590157853"
               },
               {
                  "value":"2590157853",
                  "type":{
                     "coding":[
                        {
                           "code":"MRN"
                        }
                     ]
                  }
               },
               {
                  "value":"2478684691",
                  "type":{
                     "coding":[
                        {
                           "code":"NHSNMBR"
                        }
                     ]
                  }
               },
               {
                  "type":{
                     "coding":[
                        {
                           "code":"SB"
                        }
                     ]
                  }
               },
               {
                  "type":{
                     "coding":[
                        {
                           "code":"DL"
                        }
                     ]
                  }
               }
            ],
            "telecom":[
               {
                  "use":"home",
                  "value":"020 5368 1665"
               }
            ],
            "gender":"female",
            "generalPractitioner":[
               {
                  "reference":"Organization/07070707-0707-4707-8707-070707070707"
               }
            ]
         },
         "request":{
            "method":"PUT",
            "url":"Patient/08080808-0808-4808-8808-080808080808"
         }
      },
      {
         "request":{
            "url":"Account/09090909-0909-4909-8909-090909090909",
            "method":"PUT"
         },
         "resource":{
            "resourceType":"Account",
            "subject":[
               {
                  "reference":"Patient/08080808-0808-4808-8808-080808080808"
               }
            ],
            "status":"active",
            "id":"09090909-0909-4909-8909-090909090909"
         }
      },
      {
         "resource":{
            "mode":"instance",
            "physicalType":{
               "coding":[
                  {
                     "system":"http://terminology.hl7.org/CodeSystem/location-physical-type",
                     "code":"si"
                  }
               ]
            },
            "id":"0d0d0d0d-0d0d-4d0d-8d0d-0d0d0d0d0d0d",
            "resourceType":"Location",
            "name":"RenalWard",
            "partOf":{
               "reference":"Location/0b0b0b0b-0b0b-4b0b-8b0b-0b0b0b0b0b0b"
            }
         },
         "request":{
            "method":"PUT",
            "url":"Location/0d0d0d0d-0d0d-4d0d-8d0d-0d0d0d0d0d0d"
         }
      },
      {
         "request":{
            "method":"PUT",
            "url":"Location/0e0e0e0e-0e0e-4e0e-8e0e-0e0e0e0e0e0e"
         },
         "resource":{
            "resourceType":"Location",
            "name":"MainRoom",
            "partOf":{
               "reference":"Location/0d0d0d0d-0d0d-4d0d-8d0d-0d0d0d0d0d0d"
            },
            "mode":"instance",
            "physicalType":{
               "coding":[
                  {
                     "system":"http://terminology.hl7.org/CodeSystem/location-physical-type",
                     "code":"ro"
                  }
               ]
            },
            "id":"0e0e0e0e-0e0e-4e0e-8e0e-0e0e0e0e0e0e"
         }
      },
      {
         "resource":{
            "physicalType":{
               "coding":[
                  {
                     "code":"bd",
                     "system":"http://terminology.hl7.org/CodeSystem/location-physical-type"
                  }
               ]
            },
            "id":"0f0f0f0f-0f0f-4f0f-8f0f-0f0f0f0f0f0f",
            "resourceType":"Location",
            "partOf":{
               "reference":"Location/0e0e0e0e-0e0e-4e0e-8e0e-0e0e0e0e0e0e"
            },
            "name":"Bed 1",
            "mode":"instance"
         },
         "request":{
            "method":"PUT",
            "url":"Location/0f0f0f0f-0f0f-4f0f-8f0f-0f0f0f0f0f0f"
         }
      },
      {
         "request":{
            "method":"PUT",
            "url":"Location/0a0a0a0a-0a0a-4a0a-8a0a-0a0a0a0a0a0a"
         },
         "resource":{
            "physicalType":{
               "coding":[
                  {
                     "system":"http://terminology.hl7.org/CodeSystem/location-physical-type",
                     "code":"si"
                  }
               ]
            },
            "id":"0a0a0a0a-0a0a-4a0a-8a0a-0a0a0a0a0a0a",
            "resourceType":"Location",
            "name":"Simulated Hospital",
            "mode":"instance"
         }
      },
      {
         "resource":{
            "name":"Main Building",
            "partOf":{
               "reference":"Location/0a0a0a0a-0a0a-4a0a-8a0a-0a0a0a0a0a0a"
            },
            "mode":"instance",
            "physicalType":{
               "coding":[
                  {
                     "system":"http://terminology.hl7.org/CodeSystem/location-physical-type",
                     "code":"bu"
                  }
               ]
            },
            "id":"0b0b0b0b-0b0b-4b0b-8b0b-0b0b0b0b0b0b",
            "resourceType":"Location"
         },
         "request":{
            "url":"Location/0b0b0b0b-0b0b-4b0b-8b0b-0b0b0b0b0b0b",
            "method":"PUT"
         }
      },
      {
         "resource":{
            "id":"0c0c0c0c-0c0c-4c0c-8c0c-0c0c0c0c0c0c",
            "resourceType":"Location",
            "name":"5",
            "partOf":{
               "reference":"Location/0b0b0b0b-0b0b-4b0b-8b0b-0b0b0b0b0b0b"
            },
            "mode":"instance",
            "physicalType":{
               "coding":[
                  {
                     "code":"lvl",
                     "system":"http://terminology.hl7.org/CodeSystem/location-physical-type"
                  }
               ]
            }
         },
         "request":{
            "method":"PUT",
            "url":"Location/0c0c0c0c-0c0c-4c0c-8c0c-0c0c0c0c0c0c"
         }
      },
      {
         "resource":{
            "mode":"instance",
            "partOf":{
               "reference":"Location/11111111-1111-4111-9111-111111111111"
            },
            "physicalType":{
               "coding":[
                  {
                     "code":"si",
                     "system":"http://terminology.hl7.org/CodeSystem/location-physical-type"
                  }
               ]
            },
            "id":"13131313-1313-4313-9313-131313131313",
            "resourceType":"Location"
         },
         "request":{
            "url":"Location/13131313-1313-4313-9313-131313131313",
            "method":"PUT"
         }
      },
      {
         "request":{
            "url":"Location/14141414-1414-4414-9414-141414141414",
            "method":"PUT"
         },
         "resource":{
            "physicalType":{
               "coding":[
                  {
                     "system":"http://terminology.hl7.org/CodeSystem/location-physical-type",
                     "code":"ro"
                  }
               ]
            },
            "id":"14141414-1414-4414-9414-141414141414",
            "resourceType":"Location",
            "partOf":{
               "reference":"Location/13131313-1313-4313-9313-131313131313"
            },
            "mode":"instance"
         }
      },
      {
         "resource":{
            "id":"15151515-1515-4515-9515-151515151515",
            "resourceType":"Location",
            "mode":"instance",
            "partOf":{
               "reference":"Location/14141414-1414-4414-9414-141414141414"
            },
            "physicalType":{
               "coding":[
                  {
                     "code":"bd",
                     "system":"http://terminology.hl7.org/CodeSystem/location-physical-type"
                  }
               ]
            }
         },
         "request":{
            "method":"PUT",
            "url":"Location/15151515-1515-4515-9515-151515151515"
         }
      },
      {
         "resource":{
            "mode":"instance",
            "physicalType":{
               "coding":[
                  {
                     "code":"si",
                     "system":"http://terminology.hl7.org/CodeSystem/location-physical-type"
                  }
               ]
            },
            "id":"10101010-1010-4010-9010-101010101010",
            "resourceType":"Location"
         },
         "request":{
            "method":"PUT",
            "url":"Location/10101010-1010-4010-9010-101010101010"
         }
      },
      {
         "resource":{
            "id":"11111111-1111-4111-9111-111111111111",
            "resourceType":"Location",
            "partOf":{
               "reference":"Location/10101010-1010-4010-9010-101010101010"
            },
            "mode":"instance",
            "physicalType":{
               "coding":[
                  {
                     "code":"bu",
                     "system":"http://terminology.hl7.org/CodeSystem/location-physical-type"
                  }
               ]
            }
         },
         "request":{
            "method":"PUT",
            "url":"Location/11111111-1111-4111-9111-111111111111"
         }
      },
      {
         "resource":{
            "partOf":{
               "reference":"Location/11111111-1111-4111-9111-111111111111"
            },
            "resourceType":"Location",
            "mode":"instance",
            "physicalType":{
               "coding":[
                  {
                     "code":"lvl",
                     "system":"http://terminology.hl7.org/CodeSystem/location-physical-type"
                  }
               ]
            },
            "id":"12121212-1212-4212-9212-121212121212"
         },
         "request":{
            "url":"Location/12121212-1212-4212-9212-121212121212",
            "method":"PUT"
         }
      },
      {
         "request":{
            "url":"Practitioner/16161616-1616-4616-9616-161616161616",
            "method":"PUT"
         },
         "resource":{
            "id":"16161616-1616-4616-9616-161616161616",
            "resourceType":"Practitioner",
            "identifier":[
               {
                  "value":"C006",
                  "type":{
                     "coding":[
                        {
                           "code":"ORGDR"
                        }
                     ]
                  }
               }
            ],
            "name":[
               {
                  "given":[
                     "Kathy"
                  ],
                  "prefix":[
                     "Dr"
                  ],
                  "use":"anonymous",
                  "family":"Wolf"
               }
            ]
         }
      },
      {
         "resource":{
            "id":"17171717-1717-4717-9717-171717171717",
            "resourceType":"Location"
         },
         "request":{
            "url":"Location/17171717-1717-4717-9717-171717171717",
            "method":"PUT"
         }
      },
      {
         "resource":{
            "id":"18181818-1818-4818-9818-181818181818",
            "resourceType":"EpisodeOfCare",
            "status":"finished",
            "patient":{
               "reference":"Patient/08080808-0808-4808-8808-080808080808"
            }
         },
         "request":{
            "method":"PUT",
            "url":"EpisodeOfCare/18181818-1818-4818-9818-181818181818"
         }
      },
      {
         "resource":{
            "type":[
               {
                  "coding":[
                     {
                        "code":"28b"
                     }
                  ]
               }
            ],
            "episodeOfCare":[
               {
                  "reference":"EpisodeOfCare/18181818-1818-4818-9818-181818181818"
               }
            ],
            "resourceType":"Encounter",
            "id":"19191919-1919-4919-9919-191919191919",
            "identifier":[
               {
                  "type":{
                     "text":"visit number",
                     "coding":[
                        {
                           "code":"visitid",
                           "system":"http://terminology.hl7.org/CodeSystem/v2-0203"
                        }
                     ]
                  },
                  "value":"6145914547062969032"
               }
            ],
            "participant":[
               {
                  "individual":{
                     "reference":"Practitioner/16161616-1616-4616-9616-161616161616"
                  },
                  "type":[
                     {
                        "coding":[
                           {
                              "code":"ATND",
                              "system":"http://terminology.hl7.org/CodeSystem/v3-ParticipationType",
                              "display":"attender"
                           }
                        ]
                     }
                  ]
               }
            ],
            "hospitalization":{
               "destination":{
                  "reference":"Location/17171717-1717-4717-9717-171717171717"
               }
            },
            "class":{
               "display":"inpatient encounter",
               "system":"http://terminology.hl7.org/CodeSystem/v3-ActCode",
               "code":"IMP",
               "version":"v1"
            },
            "status":"unknown",
            "subject":{
               "reference":"Patient/08080808-0808-4808-8808-080808080808"
            },
            "location":[
               {
                  "status":"active",
                  "location":{
                     "reference":"Location/0d0d0d0d-0d0d-4d0d-8d0d-0d0d0d0d0d0d"
                  }
               },
               {
                  "status":"active",
                  "location":{
                     "reference":"Location/0e0e0e0e-0e0e-4e0e-8e0e-0e0e0e0e0e0e"
                  }
               },
               {
                  "status":"active",
                  "location":{
                     "reference":"Location/0f0f0f0f-0f0f-4f0f-8f0f-0f0f0f0f0f0f"
                  }
               },
               {
                  "status":"active",
                  "location":{
                     "reference":"Location/0a0a0a0a-0a0a-4a0a-8a0a-0a0a0a0a0a0a"
                  }
               },
               {
                  "status":"active",
                  "location":{
                     "reference":"Location/0b0b0b0b-0b0b-4b0b-8b0b-0b0b0b0b0b0b"
                  }
               },
               {
                  "status":"active",
                  "location":{
                     "reference":"Location/0c0c0c0c-0c0c-4c0c-8c0c-0c0c0c0c0c0c"
                  }
               },
               {
                  "status":"completed",
                  "location":{
                     "reference":"Location/13131313-1313-4313-9313-131313131313"
                  }
               },
               {
                  "location":{
                     "reference":"Location/14141414-1414-4414-9414-141414141414"
                  },
                  "status":"completed"
               },
               {
                  "location":{
                     "reference":"Location/15151515-1515-4515-9515-151515151515"
                  },
                  "status":"completed"
               },
               {
                  "status":"completed",
                  "location":{
                     "reference":"Location/10101010-1010-4010-9010-101010101010"
                  }
               },
               {
                  "location":{
                     "reference":"Location/11111111-1111-4111-9111-111111111111"
                  },
                  "status":"completed"
               },
               {
                  "location":{
                     "reference":"Location/12121212-1212-4212-9212-121212121212"
                  },
                  "status":"completed"
               }
            ],
            "period":{
               "start":"2020-05-08T13:06:43+05:00"
            }
         },
         "request":{
            "method":"PUT",
            "url":"Encounter/19191919-1919-4919-9919-191919191919"
         }
      }
   ]
}

