{
  "type": "transaction",
  "entry": [
    {
      "fullUrl": "MessageHeader/MSG00001GOODHEALTHHOSPITAL",
      "resource": {
        "eventCoding": {
          "system": "http://hl7.org/fhir/message-events",
          "code": "A01",
          "display": "Patient Admit"
        },
        "destination": [
          {
            "name": "GHH LAB, INC.",
            "endpoint": "GOOD HEALTH HOSPITAL"
          }
        ],
        "source": {
          "name": "ADT1",
          "endpoint": "GOOD HEALTH HOSPITAL"
        },
        "response": {
          "identifier": "MSG00001",
          "code": "ok"
        },
        "focus": [
          {
            "reference": "Patient/PATID1234"
          }
        ],
        "resourceType": "MessageHeader"
      },
      "request": {
        "method": "PUT",
        "url": "MessageHeader?response-id=MSG00001"
      }
    },
    {
      "fullUrl": "Patient/PATID1234",
      "resource": {
        "identifier": [
          {
            "use": "usual",
            "type": {
              "coding": [
                {
                  "system": "http://terminology.hl7.org/CodeSystem/v2-0203",
                  "code": "MR",
                  "display": "Medical record number"
                }
              ]
            },
            "system": "https://www.lumc.nl/identifiers/PatientIdentifier",
            "value": "PATID1234"
          },
          {
            "use": "official",
            "type": {
              "coding": [
                {
                  "system": "http://terminology.hl7.org/CodeSystem/v2-0203",
                  "code": "PRN",
                  "display": "Provider number"
                }
              ]
            },
            "system": "http://hl7.org/fhir/sid/us-ssn",
            "value": "444333333"
          },
          {
            "use": "secondary",
            "type": {
              "coding": [
                {
                  "system": "http://terminology.hl7.org/CodeSystem/v2-0203",
                  "code": "SNO",
                  "display": "Serial Number"
                }
              ]
            },
            "system": "https://www.lumc.nl/identifiers/H2H-ssn",
            "value": "3333"
          },
          {
            "use": "official",
            "type": {
              "coding": [
                {
                  "system": "http://terminology.hl7.org/CodeSystem/v2-0203",
                  "code": "FILL",
                  "display": "Filler Identifier"
                }
              ]
            },
            "system": "https://www.lumc.nl/identifiers/PatientIdentifier",
            "value": "PATID12345001"
          },
          {
            "use": "official",
            "type": {
              "coding": [
                {
                  "system": "http://terminology.hl7.org/CodeSystem/v2-0203",
                  "code": "DL",
                  "display": "Driver's license number"
                }
              ]
            },
            "system": "https://www.lumc.nl/identifiers/PatientIdentifier",
            "value": "987654"
          }
        ],
        "name": [
          {
            "use": "usual",
            "family": "EVERYMAN",
            "given": [
              "ADAM",
              "A"
            ]
          }
        ],
        "telecom": [
          {
            "system": "phone",
            "value": "(555) 555-2004",
            "use": "home"
          },
          {
            "system": "phone",
            "value": "(555)555-2004",
            "use": "work"
          },
          {
            "system": "email",
            "use": "home"
          },
          {
            "system": "email",
            "use": "work"
          }
        ],
        "gender": "male",
        "birthDate": "1961-06-15",
        "address": [
          {
            "line": [
              "2222 HOME STREET"
            ],
            "city": "GREENSBORO",
            "state": "NC",
            "postalCode": "27401-1020"
          }
        ],
        "maritalStatus": {
          "coding": [
            {
              "system": "http://terminology.hl7.org/CodeSystem/v3-MaritalStatus",
              "code": "UNK",
              "display": "Unknown"
            }
          ]
        },
        "multipleBirthInteger": 0,
        "contact": [
          {
            "name": {
              "family": "NUCLEAR",
              "given": [
                "NELDA",
                "W"
              ]
            }
          }
        ],
        "managingOrganization": {
          "reference": "Organization/1dae42591f2f4a4e9b0a220fa53df836"
        },
        "resourceType": "Patient"
      },
      "request": {
        "method": "PUT",
        "url": "Patient?identifier=https://www.lumc.nl/identifiers/PatientIdentifier|PATID1234"
      }
    },
    {
      "fullUrl": "RelatedPerson/NUCLEARNELDAWPATID1234",
      "resource": {
        "patient": {
          "reference": "Patient/PATID1234",
          "display": "EVERYMAN ADAM A"
        },
        "name": [
          {
            "family": "NUCLEAR",
            "given": [
              "NELDA",
              "W"
            ]
          }
        ],
        "resourceType": "RelatedPerson"
      },
      "request": {
        "method": "POST",
        "url": "RelatedPerson"
      }
    },
    {
      "fullUrl": "Location/EncLocPATID1234",
      "resource": {
        "identifier": [
          {
            "value": "2000.2012.01"
          }
        ],
        "mode": "instance",
        "managingOrganization": {
          "reference": "Organization/1dae42591f2f4a4e9b0a220fa53df836"
        },
        "resourceType": "Location"
      },
      "request": {
        "method": "POST",
        "url": "Location"
      }
    },
    {
      "fullUrl": "Encounter/EncPATID1234",
      "resource": {
        "status": "planned",
        "class": {
          "code": "IMP"
        },
        "serviceType": {
          "coding": [
            {
              "system": "http://terminology.hl7.org/CodeSystem/service-type",
              "code": "483",
              "display": "Further Desc. - Specialist Surgical"
            }
          ]
        },
        "subject": {
          "reference": "Patient/PATID1234",
          "display": "EVERYMAN ADAM A"
        },
        "participant": [
          {
            "individual": {
              "reference": "Practitioner/004777AARONATTEND"
            }
          }
        ],
        "hospitalization": {
          "admitSource": {
            "coding": [
              {
                "system": "http://terminology.hl7.org/CodeSystem/admit-source",
                "code": "outp",
                "display": "From outpatient department"
              }
            ]
          },
          "reAdmission": {
            "coding": [
              {
                "userSelected": false
              }
            ]
          }
        },
        "location": [
          {
            "location": {
              "reference": "Location/EncLocPATID1234"
            }
          }
        ],
        "serviceProvider": {
          "reference": "Organization/1dae42591f2f4a4e9b0a220fa53df836"
        },
        "resourceType": "Encounter"
      },
      "request": {
        "method": "PUT",
        "url": "Encounter?identifier="
      }
    },
    {
      "fullUrl": "Practitioner/004777AARONATTEND",
      "resource": {
        "identifier": [
          {
            "use": "official",
            "system": "https://www.lumc.nl/identifiers/PractitionerIdentifier",
            "value": "004777"
          }
        ],
        "name": [
          {
            "family": "ATTEND",
            "given": [
              "AARON"
            ]
          }
        ],
        "gender": "unknown",
        "resourceType": "Practitioner"
      },
      "request": {
        "method": "POST",
        "url": "Practitioner",
        "ifNoneExist": "identifier=https://www.lumc.nl/identifiers/PractitionerIdentifier|004777"
      }
    },
    {
      "fullUrl": "PractitionerRole/004777AARONATTEND1",
      "resource": {
        "practitioner": {
          "reference": "Practitioner/004777AARONATTEND"
        },
        "organization": {
          "reference": "Organization/1dae42591f2f4a4e9b0a220fa53df836"
        },
        "code": [
          {
            "coding": [
              {
                "system": "http://terminology.hl7.org/CodeSystem/practitioner-role",
                "code": "doctor",
                "display": "Doctor"
              }
            ]
          }
        ],
        "resourceType": "PractitionerRole"
      },
      "request": {
        "method": "PUT",
        "url": "PractitionerRole?practitioner=Practitioner/004777AARONATTEND"
      }
    },
    {
      "fullUrl": "Provenance/ProvPATID1234",
      "resource": {
        "target": [
          {
            "reference": "MessageHeader/MSG00001GOODHEALTHHOSPITAL"
          },
          {
            "reference": "Patient/PATID1234"
          },
          {
            "reference": "RelatedPerson/NUCLEARNELDAWPATID1234"
          },
          {
            "reference": "Location/EncLocPATID1234"
          },
          {
            "reference": "Encounter/EncPATID1234"
          },
          {
            "reference": "Practitioner/004777AARONATTEND"
          },
          {
            "reference": "PractitionerRole/004777AARONATTEND1"
          }
        ],
        "occurredPeriod": {
          "start": "1988-08-18",
          "end": "1988-08-18"
        },
        "recorded": "2020-05-15T19:25:27+06:30",
        "reason": [
          {
            "coding": [
              {
                "system": "http://terminology.hl7.org/CodeSystem/v3-ActReason",
                "code": "RECORDMGT",
                "display": "records management"
              }
            ]
          }
        ],
        "activity": {
          "coding": [
            {
              "system": "http://terminology.hl7.org/CodeSystem/v3-DataOperation",
              "code": "CREATE",
              "display": "create"
            }
          ]
        },
        "agent": [
          {
            "role": [
              {
                "coding": [
                  {
                    "system": "http://terminology.hl7.org/CodeSystem/contractsignertypecodes",
                    "code": "REVIEWER",
                    "display": "Reviewer"
                  }
                ]
              }
            ],
            "who": {
              "display": "IOBridge"
            }
          }
        ],
        "entity": [
          {
            "role": "source",
            "what": {
              "identifier": {
                "system": "http://www.hl7.org/fhir/ProvenanceIdentifier",
                "value": "IOBridge_Toolkit_Test"
              },
              "display": "IOBridge_Toolkit_Test"
            }
          }
        ],
        "resourceType": "Provenance"
      },
      "request": {
        "method": "POST",
        "url": "Provenance"
      }
    }
  ],
  "resourceType": "Bundle"
}